## w(eV)         sigma(Sm^-1)     kappa(W(mK)^-1)        L12/e(Am^-1)      L22/e^2(Wm^-1)
    0.01              515804             765.102        -1.00554e+07         2.68508e+08
    0.03              515801             765.096        -1.00554e+07         2.68508e+08
    0.05              515794             765.084        -1.00554e+07         2.68508e+08
    0.07              515783             765.066        -1.00553e+07         2.68508e+08
    0.09              515769             765.042        -1.00552e+07         2.68507e+08
    0.11              515752             765.012        -1.00551e+07         2.68507e+08
    0.13              515731             764.975         -1.0055e+07         2.68507e+08
    0.15              515707             764.933        -1.00549e+07         2.68507e+08
    0.17              515679             764.885        -1.00547e+07         2.68507e+08
    0.19              515647              764.83        -1.00546e+07         2.68507e+08
    0.21              515613              764.77        -1.00544e+07         2.68507e+08
    0.23              515574             764.703        -1.00541e+07         2.68507e+08
    0.25              515533             764.631        -1.00539e+07         2.68507e+08
    0.27              515487             764.552        -1.00537e+07         2.68507e+08
    0.29              515439             764.468        -1.00534e+07         2.68506e+08
    0.31              515386             764.377        -1.00531e+07         2.68506e+08
    0.33              515331              764.28        -1.00528e+07         2.68506e+08
    0.35              515272             764.177        -1.00524e+07         2.68506e+08
    0.37              515209             764.068        -1.00521e+07         2.68506e+08
    0.39              515143             763.953        -1.00517e+07         2.68505e+08
    0.41              515073             763.832        -1.00513e+07         2.68505e+08
    0.43              515000             763.705        -1.00509e+07         2.68505e+08
    0.45              514923             763.572        -1.00505e+07         2.68504e+08
    0.47              514843             763.433          -1.005e+07         2.68504e+08
    0.49              514760             763.288        -1.00495e+07         2.68503e+08
    0.51              514673             763.136         -1.0049e+07         2.68503e+08
    0.53              514582             762.979        -1.00485e+07         2.68502e+08
    0.55              514488             762.816         -1.0048e+07         2.68502e+08
    0.57              514391             762.646        -1.00474e+07         2.68501e+08
    0.59              514290              762.47        -1.00469e+07           2.685e+08
    0.61              514185             762.289        -1.00463e+07         2.68499e+08
    0.63              514077             762.101        -1.00456e+07         2.68499e+08
    0.65              513966             761.907         -1.0045e+07         2.68498e+08
    0.67              513851             761.707        -1.00443e+07         2.68497e+08
    0.69              513733             761.501        -1.00436e+07         2.68496e+08
    0.71              513611             761.289        -1.00429e+07         2.68495e+08
    0.73              513485              761.07        -1.00422e+07         2.68493e+08
    0.75              513357             760.846        -1.00415e+07         2.68492e+08
    0.77              513224             760.615        -1.00407e+07         2.68491e+08
    0.79              513088             760.379        -1.00399e+07         2.68489e+08
    0.81              512949             760.136        -1.00391e+07         2.68488e+08
    0.83              512806             759.887        -1.00382e+07         2.68486e+08
    0.85              512660             759.632        -1.00374e+07         2.68484e+08
    0.87              512510             759.371        -1.00365e+07         2.68482e+08
    0.89              512357             759.104        -1.00356e+07          2.6848e+08
    0.91              512200              758.83        -1.00347e+07         2.68478e+08
    0.93              512040             758.551        -1.00337e+07         2.68476e+08
    0.95              511876             758.265        -1.00327e+07         2.68473e+08
    0.97              511709             757.973        -1.00317e+07         2.68471e+08
    0.99              511538             757.676        -1.00307e+07         2.68468e+08
    1.01              511364             757.371        -1.00297e+07         2.68465e+08
    1.03              511186             757.061        -1.00286e+07         2.68462e+08
    1.05              511005             756.745        -1.00275e+07         2.68459e+08
    1.07              510820             756.422        -1.00264e+07         2.68456e+08
    1.09              510632             756.094        -1.00252e+07         2.68453e+08
    1.11              510440             755.759        -1.00241e+07         2.68449e+08
    1.13              510245             755.418        -1.00229e+07         2.68445e+08
    1.15              510046              755.07        -1.00217e+07         2.68441e+08
    1.17              509844             754.717        -1.00204e+07         2.68437e+08
    1.19              509638             754.357        -1.00192e+07         2.68432e+08
    1.21              509429             753.991        -1.00179e+07         2.68428e+08
    1.23              509216             753.619        -1.00165e+07         2.68423e+08
    1.25              509000             753.241        -1.00152e+07         2.68418e+08
    1.27              508780             752.857        -1.00138e+07         2.68413e+08
    1.29              508557             752.466        -1.00124e+07         2.68407e+08
    1.31              508330             752.069         -1.0011e+07         2.68401e+08
    1.33              508100             751.666        -1.00096e+07         2.68395e+08
    1.35              507866             751.257        -1.00081e+07         2.68389e+08
    1.37              507629             750.841        -1.00066e+07         2.68382e+08
    1.39              507388              750.42         -1.0005e+07         2.68375e+08
    1.41              507144             749.992        -1.00035e+07         2.68368e+08
    1.43              506896             749.557        -1.00019e+07         2.68361e+08
    1.45              506645             749.117        -1.00003e+07         2.68353e+08
    1.47              506390              748.67        -9.99862e+06         2.68345e+08
    1.49              506131             748.217        -9.99695e+06         2.68337e+08
    1.51              505870             747.758        -9.99524e+06         2.68328e+08
    1.53              505604             747.292        -9.99351e+06         2.68319e+08
    1.55              505336             746.821        -9.99175e+06          2.6831e+08
    1.57              505063             746.342        -9.98996e+06           2.683e+08
    1.59              504787             745.858        -9.98814e+06          2.6829e+08
    1.61              504508             745.367        -9.98628e+06          2.6828e+08
    1.63              504225             744.871         -9.9844e+06         2.68269e+08
    1.65              503939             744.367        -9.98249e+06         2.68258e+08
    1.67              503649             743.858        -9.98055e+06         2.68247e+08
    1.69              503356             743.342        -9.97857e+06         2.68235e+08
    1.71              503059              742.82        -9.97657e+06         2.68223e+08
    1.73              502758             742.292        -9.97453e+06          2.6821e+08
    1.75              502454             741.757        -9.97246e+06         2.68197e+08
    1.77              502147             741.216        -9.97036e+06         2.68183e+08
    1.79              501836             740.668        -9.96822e+06         2.68169e+08
    1.81              501521             740.115        -9.96606e+06         2.68155e+08
    1.83              501203             739.555        -9.96386e+06          2.6814e+08
    1.85              500882             738.988        -9.96162e+06         2.68125e+08
    1.87              500557             738.416        -9.95935e+06         2.68109e+08
    1.89              500228             737.837        -9.95705e+06         2.68092e+08
    1.91              499896             737.251        -9.95472e+06         2.68076e+08
    1.93              499561              736.66        -9.95235e+06         2.68058e+08
    1.95              499222             736.062        -9.94994e+06          2.6804e+08
    1.97              498879             735.457         -9.9475e+06         2.68022e+08
    1.99              498533             734.846        -9.94503e+06         2.68003e+08
    2.01              498183             734.229        -9.94252e+06         2.67984e+08
    2.03              497830             733.606        -9.93997e+06         2.67964e+08
    2.05              497474             732.976        -9.93739e+06         2.67943e+08
    2.07              497113              732.34        -9.93477e+06         2.67922e+08
    2.09              496750             731.697        -9.93211e+06           2.679e+08
    2.11              496382             731.048        -9.92942e+06         2.67878e+08
    2.13              496012             730.393        -9.92669e+06         2.67855e+08
    2.15              495637             729.731        -9.92392e+06         2.67831e+08
    2.17              495260             729.063        -9.92111e+06         2.67807e+08
    2.19              494878             728.388        -9.91827e+06         2.67782e+08
    2.21              494494             727.707        -9.91539e+06         2.67757e+08
    2.23              494105              727.02        -9.91246e+06         2.67731e+08
    2.25              493714             726.326         -9.9095e+06         2.67704e+08
    2.27              493318             725.626         -9.9065e+06         2.67676e+08
    2.29              492919             724.919        -9.90346e+06         2.67648e+08
    2.31              492517             724.206        -9.90038e+06         2.67619e+08
    2.33              492111             723.487        -9.89725e+06          2.6759e+08
    2.35              491702             722.761        -9.89409e+06         2.67559e+08
    2.37              491289             722.029        -9.89089e+06         2.67528e+08
    2.39              490872              721.29        -9.88764e+06         2.67496e+08
    2.41              490452             720.545        -9.88435e+06         2.67464e+08
    2.43              490029             719.794        -9.88102e+06          2.6743e+08
    2.45              489602             719.036        -9.87765e+06         2.67396e+08
    2.47              489172             718.272        -9.87423e+06         2.67361e+08
    2.49              488738             717.501        -9.87077e+06         2.67326e+08
    2.51              488300             716.724        -9.86727e+06         2.67289e+08
    2.53              487859             715.941        -9.86373e+06         2.67252e+08
    2.55              487415             715.151        -9.86014e+06         2.67213e+08
    2.57              486967             714.354         -9.8565e+06         2.67174e+08
    2.59              486515             713.552        -9.85282e+06         2.67134e+08
    2.61              486060             712.743         -9.8491e+06         2.67093e+08
    2.63              485602             711.927        -9.84533e+06         2.67052e+08
    2.65              485140             711.105        -9.84151e+06         2.67009e+08
    2.67              484674             710.276        -9.83765e+06         2.66965e+08
    2.69              484205             709.442        -9.83374e+06         2.66921e+08
    2.71              483732               708.6        -9.82978e+06         2.66876e+08
    2.73              483256             707.753        -9.82578e+06         2.66829e+08
    2.75              482777             706.899        -9.82173e+06         2.66782e+08
    2.77              482294             706.038        -9.81763e+06         2.66734e+08
    2.79              481807             705.171        -9.81348e+06         2.66684e+08
    2.81              481317             704.298        -9.80929e+06         2.66634e+08
    2.83              480824             703.418        -9.80505e+06         2.66583e+08
    2.85              480327             702.532        -9.80075e+06         2.66531e+08
    2.87              479826             701.639        -9.79641e+06         2.66477e+08
    2.89              479322              700.74        -9.79202e+06         2.66423e+08
    2.91              478815             699.835        -9.78758e+06         2.66367e+08
    2.93              478304             698.923        -9.78308e+06         2.66311e+08
    2.95              477789             698.005        -9.77854e+06         2.66253e+08
    2.97              477272             697.081        -9.77394e+06         2.66195e+08
    2.99              476750              696.15         -9.7693e+06         2.66135e+08
    3.01              476225             695.213         -9.7646e+06         2.66074e+08
    3.03              475697             694.269        -9.75985e+06         2.66012e+08
    3.05              475165             693.319        -9.75504e+06         2.65949e+08
    3.07              474630             692.362        -9.75019e+06         2.65885e+08
    3.09              474091               691.4        -9.74528e+06         2.65819e+08
    3.11              473549             690.431        -9.74031e+06         2.65752e+08
    3.13              473003             689.455        -9.73529e+06         2.65684e+08
    3.15              472454             688.473        -9.73022e+06         2.65615e+08
    3.17              471901             687.485         -9.7251e+06         2.65545e+08
    3.19              471345             686.491        -9.71991e+06         2.65474e+08
    3.21              470786              685.49        -9.71468e+06         2.65401e+08
    3.23              470223             684.483        -9.70939e+06         2.65327e+08
    3.25              469657             683.469        -9.70404e+06         2.65251e+08
    3.27              469087              682.45        -9.69863e+06         2.65175e+08
    3.29              468513             681.424        -9.69317e+06         2.65097e+08
    3.31              467937             680.391        -9.68765e+06         2.65018e+08
    3.33              467357             679.353        -9.68208e+06         2.64937e+08
    3.35              466773             678.308        -9.67645e+06         2.64856e+08
    3.37              466186             677.256        -9.67075e+06         2.64772e+08
    3.39              465595             676.199        -9.66501e+06         2.64688e+08
    3.41              465002             675.135         -9.6592e+06         2.64602e+08
    3.43              464404             674.065        -9.65333e+06         2.64515e+08
    3.45              463804             672.989        -9.64741e+06         2.64426e+08
    3.47              463199             671.907        -9.64142e+06         2.64336e+08
    3.49              462592             670.818        -9.63537e+06         2.64245e+08
    3.51              461981             669.723        -9.62927e+06         2.64152e+08
    3.53              461367             668.622         -9.6231e+06         2.64057e+08
    3.55              460749             667.515        -9.61688e+06         2.63961e+08
    3.57              460128             666.402        -9.61059e+06         2.63864e+08
    3.59              459503             665.282        -9.60424e+06         2.63765e+08
    3.61              458875             664.156        -9.59783e+06         2.63665e+08
    3.63              458244             663.025        -9.59135e+06         2.63563e+08
    3.65              457609             661.887        -9.58482e+06          2.6346e+08
    3.67              456971             660.743        -9.57822e+06         2.63355e+08
    3.69              456330             659.592        -9.57156e+06         2.63249e+08
    3.71              455685             658.436        -9.56483e+06         2.63141e+08
    3.73              455037             657.274        -9.55804e+06         2.63032e+08
    3.75              454386             656.105        -9.55119e+06         2.62921e+08
    3.77              453731             654.931        -9.54427e+06         2.62808e+08
    3.79              453073              653.75        -9.53729e+06         2.62694e+08
    3.81              452411             652.564        -9.53025e+06         2.62578e+08
    3.83              451746             651.371        -9.52313e+06          2.6246e+08
    3.85              451078             650.173        -9.51596e+06         2.62341e+08
    3.87              450407             648.968        -9.50871e+06         2.62221e+08
    3.89              449732             647.758        -9.50141e+06         2.62098e+08
    3.91              449054             646.542        -9.49403e+06         2.61974e+08
    3.93              448373             645.319        -9.48659e+06         2.61848e+08
    3.95              447688             644.091        -9.47908e+06         2.61721e+08
    3.97              447000             642.857        -9.47151e+06         2.61592e+08
    3.99              446309             641.617        -9.46386e+06         2.61461e+08
    4.01              445614             640.371        -9.45615e+06         2.61328e+08
    4.03              444916             639.119        -9.44837e+06         2.61194e+08
    4.05              444215             637.862        -9.44053e+06         2.61058e+08
    4.07              443511             636.598        -9.43261e+06          2.6092e+08
    4.09              442803             635.329        -9.42463e+06          2.6078e+08
    4.11              442093             634.055        -9.41657e+06         2.60639e+08
    4.13              441379             632.774        -9.40845e+06         2.60495e+08
    4.15              440661             631.488        -9.40026e+06          2.6035e+08
    4.17              439941             630.195          -9.392e+06         2.60203e+08
    4.19              439217             628.898        -9.38367e+06         2.60055e+08
    4.21              438490             627.594        -9.37527e+06         2.59904e+08
    4.23              437760             626.285        -9.36679e+06         2.59752e+08
    4.25              437027             624.971        -9.35825e+06         2.59598e+08
    4.27              436290              623.65        -9.34963e+06         2.59441e+08
    4.29              435550             622.324        -9.34095e+06         2.59283e+08
    4.31              434807             620.993        -9.33219e+06         2.59123e+08
    4.33              434061             619.656        -9.32336e+06         2.58962e+08
    4.35              433312             618.314        -9.31446e+06         2.58798e+08
    4.37              432560             616.966        -9.30549e+06         2.58632e+08
    4.39              431804             615.612        -9.29644e+06         2.58465e+08
    4.41              431046             614.253        -9.28733e+06         2.58295e+08
    4.43              430284             612.889        -9.27814e+06         2.58123e+08
    4.45              429519             611.519        -9.26887e+06          2.5795e+08
    4.47              428751             610.144        -9.25954e+06         2.57774e+08
    4.49              427980             608.764        -9.25012e+06         2.57597e+08
    4.51              427206             607.378        -9.24064e+06         2.57417e+08
    4.53              426428             605.987        -9.23108e+06         2.57236e+08
    4.55              425648             604.591        -9.22145e+06         2.57052e+08
    4.57              424865              603.19        -9.21174e+06         2.56867e+08
    4.59              424078             601.783        -9.20196e+06         2.56679e+08
    4.61              423289             600.371        -9.19211e+06          2.5649e+08
    4.63              422496             598.954        -9.18218e+06         2.56298e+08
    4.65              421701             597.532        -9.17217e+06         2.56104e+08
    4.67              420902             596.105        -9.16209e+06         2.55909e+08
    4.69              420101             594.672        -9.15194e+06         2.55711e+08
    4.71              419296             593.235        -9.14171e+06         2.55511e+08
    4.73              418489             591.793         -9.1314e+06         2.55309e+08
    4.75              417679             590.345        -9.12102e+06         2.55104e+08
    4.77              416865             588.893        -9.11056e+06         2.54898e+08
    4.79              416049             587.436        -9.10003e+06          2.5469e+08
    4.81              415229             585.974        -9.08942e+06         2.54479e+08
    4.83              414407             584.507        -9.07873e+06         2.54266e+08
    4.85              413582             583.035        -9.06797e+06         2.54052e+08
    4.87              412754             581.558        -9.05713e+06         2.53835e+08
    4.89              411923             580.077        -9.04621e+06         2.53615e+08
    4.91              411089             578.591        -9.03522e+06         2.53394e+08
    4.93              410253               577.1        -9.02415e+06         2.53171e+08
    4.95              409413             575.605        -9.01301e+06         2.52945e+08
    4.97              408571             574.104        -9.00178e+06         2.52717e+08
    4.99              407726               572.6        -8.99048e+06         2.52487e+08
    5.01              406878              571.09         -8.9791e+06         2.52254e+08
    5.03              406027             569.577        -8.96765e+06          2.5202e+08
    5.05              405173             568.058        -8.95611e+06         2.51783e+08
    5.07              404317             566.536         -8.9445e+06         2.51544e+08
    5.09              403458             565.008        -8.93281e+06         2.51303e+08
    5.11              402596             563.477        -8.92104e+06         2.51059e+08
    5.13              401731             561.941         -8.9092e+06         2.50814e+08
    5.15              400864             560.401        -8.89728e+06         2.50566e+08
    5.17              399994             558.856        -8.88528e+06         2.50315e+08
    5.19              399121             557.308         -8.8732e+06         2.50063e+08
    5.21              398246             555.755        -8.86104e+06         2.49808e+08
    5.23              397367             554.197        -8.84881e+06         2.49551e+08
    5.25              396487             552.636        -8.83649e+06         2.49292e+08
    5.27              395603             551.071         -8.8241e+06          2.4903e+08
    5.29              394717             549.501        -8.81163e+06         2.48766e+08
    5.31              393828             547.928        -8.79909e+06           2.485e+08
    5.33              392937             546.351        -8.78646e+06         2.48231e+08
    5.35              392043             544.769        -8.77376e+06          2.4796e+08
    5.37              391147             543.184        -8.76097e+06         2.47687e+08
    5.39              390248             541.595        -8.74811e+06         2.47411e+08
    5.41              389346             540.002        -8.73517e+06         2.47134e+08
    5.43              388442             538.405        -8.72216e+06         2.46853e+08
    5.45              387536             536.805        -8.70906e+06         2.46571e+08
    5.47              386627             535.201        -8.69589e+06         2.46286e+08
    5.49              385715             533.593        -8.68263e+06         2.45999e+08
    5.51              384801             531.982         -8.6693e+06         2.45709e+08
    5.53              383885             530.367        -8.65589e+06         2.45418e+08
    5.55              382966             528.748        -8.64241e+06         2.45123e+08
    5.57              382044             527.126        -8.62884e+06         2.44827e+08
    5.59              381121             525.501         -8.6152e+06         2.44528e+08
    5.61              380195             523.872        -8.60148e+06         2.44227e+08
    5.63              379266              522.24        -8.58768e+06         2.43923e+08
    5.65              378335             520.604         -8.5738e+06         2.43617e+08
    5.67              377402             518.965        -8.55985e+06         2.43308e+08
    5.69              376467             517.323        -8.54581e+06         2.42998e+08
    5.71              375529             515.678         -8.5317e+06         2.42685e+08
    5.73              374589              514.03        -8.51752e+06         2.42369e+08
    5.75              373647             512.379        -8.50325e+06         2.42051e+08
    5.77              372702             510.724        -8.48891e+06         2.41731e+08
    5.79              371756             509.067        -8.47449e+06         2.41408e+08
    5.81              370807             507.406        -8.45999e+06         2.41083e+08
    5.83              369856             505.743        -8.44541e+06         2.40756e+08
    5.85              368902             504.077        -8.43076e+06         2.40426e+08
    5.87              367947             502.408        -8.41603e+06         2.40094e+08
    5.89              366989             500.736        -8.40123e+06         2.39759e+08
    5.91              366030             499.062        -8.38635e+06         2.39422e+08
    5.93              365068             497.385        -8.37139e+06         2.39083e+08
    5.95              364104             495.705        -8.35635e+06         2.38741e+08
    5.97              363138             494.023        -8.34124e+06         2.38397e+08
    5.99              362170             492.338        -8.32606e+06         2.38051e+08
    6.01              361200              490.65         -8.3108e+06         2.37702e+08
    6.03              360229             488.961        -8.29546e+06         2.37351e+08
    6.05              359255             487.269        -8.28004e+06         2.36997e+08
    6.07              358279             485.574        -8.26455e+06         2.36641e+08
    6.09              357301             483.877        -8.24899e+06         2.36283e+08
    6.11              356321             482.178        -8.23335e+06         2.35922e+08
    6.13              355340             480.477        -8.21764e+06         2.35559e+08
    6.15              354356             478.774        -8.20185e+06         2.35194e+08
    6.17              353371             477.068        -8.18599e+06         2.34826e+08
    6.19              352384             475.361        -8.17005e+06         2.34456e+08
    6.21              351395             473.652        -8.15404e+06         2.34083e+08
    6.23              350404              471.94        -8.13796e+06         2.33708e+08
    6.25              349411             470.227         -8.1218e+06         2.33331e+08
    6.27              348417             468.512        -8.10557e+06         2.32951e+08
    6.29              347421             466.795        -8.08926e+06         2.32569e+08
    6.31              346423             465.076        -8.07289e+06         2.32185e+08
    6.33              345424             463.356        -8.05644e+06         2.31798e+08
    6.35              344423             461.634        -8.03992e+06         2.31409e+08
    6.37              343420             459.911        -8.02333e+06         2.31018e+08
    6.39              342415             458.186        -8.00666e+06         2.30624e+08
    6.41              341410             456.459        -7.98993e+06         2.30228e+08
    6.43              340402             454.731        -7.97312e+06          2.2983e+08
    6.45              339393             453.002        -7.95624e+06         2.29429e+08
    6.47              338382             451.272         -7.9393e+06         2.29026e+08
    6.49              337370              449.54        -7.92228e+06          2.2862e+08
    6.51              336357             447.807        -7.90519e+06         2.28213e+08
    6.53              335342             446.072        -7.88803e+06         2.27803e+08
    6.55              334325             444.337        -7.87081e+06         2.27391e+08
    6.57              333307             442.601        -7.85351e+06         2.26976e+08
    6.59              332288             440.863        -7.83615e+06         2.26559e+08
    6.61              331267             439.125        -7.81872e+06          2.2614e+08
    6.63              330245             437.386        -7.80122e+06         2.25719e+08
    6.65              329222             435.646        -7.78365e+06         2.25295e+08
    6.67              328197             433.905        -7.76601e+06         2.24869e+08
    6.69              327171             432.164        -7.74831e+06         2.24441e+08
    6.71              326144             430.422        -7.73055e+06         2.24011e+08
    6.73              325116             428.679        -7.71271e+06         2.23578e+08
    6.75              324086             426.935        -7.69481e+06         2.23143e+08
    6.77              323056             425.192        -7.67685e+06         2.22706e+08
    6.79              322024             423.447        -7.65882e+06         2.22267e+08
    6.81              320991             421.702        -7.64073e+06         2.21825e+08
    6.83              319957             419.957        -7.62257e+06         2.21382e+08
    6.85              318921             418.212        -7.60435e+06         2.20936e+08
    6.87              317885             416.466        -7.58606e+06         2.20488e+08
    6.89              316848             414.721        -7.56771e+06         2.20038e+08
    6.91              315810             412.975         -7.5493e+06         2.19585e+08
    6.93              314771             411.229        -7.53083e+06         2.19131e+08
    6.95              313730             409.483         -7.5123e+06         2.18674e+08
    6.97              312689             407.737         -7.4937e+06         2.18215e+08
    6.99              311647             405.991        -7.47505e+06         2.17754e+08
    7.01              310604             404.246        -7.45633e+06         2.17291e+08
    7.03              309561               402.5        -7.43756e+06         2.16826e+08
    7.05              308516             400.755        -7.41872e+06         2.16359e+08
    7.07              307471              399.01        -7.39983e+06         2.15889e+08
    7.09              306425             397.265        -7.38088e+06         2.15418e+08
    7.11              305378             395.521        -7.36187e+06         2.14944e+08
    7.13              304330             393.778         -7.3428e+06         2.14469e+08
    7.15              303282             392.035        -7.32368e+06         2.13991e+08
    7.17              302233             390.292         -7.3045e+06         2.13512e+08
    7.19              301184             388.551        -7.28526e+06          2.1303e+08
    7.21              300134             386.809        -7.26597e+06         2.12546e+08
    7.23              299083             385.069        -7.24663e+06         2.12061e+08
    7.25              298032              383.33        -7.22722e+06         2.11573e+08
    7.27              296980             381.591        -7.20777e+06         2.11083e+08
    7.29              295927             379.853        -7.18826e+06         2.10592e+08
    7.31              294875             378.117         -7.1687e+06         2.10098e+08
    7.33              293821             376.381        -7.14909e+06         2.09603e+08
    7.35              292768             374.646        -7.12942e+06         2.09106e+08
    7.37              291714             372.913        -7.10971e+06         2.08606e+08
    7.39              290659             371.181        -7.08994e+06         2.08105e+08
    7.41              289604              369.45        -7.07013e+06         2.07602e+08
    7.43              288549              367.72        -7.05026e+06         2.07097e+08
    7.45              287494             365.992        -7.03035e+06         2.06591e+08
    7.47              286438             364.265        -7.01038e+06         2.06082e+08
    7.49              285383              362.54        -6.99037e+06         2.05572e+08
    7.51              284327             360.816        -6.97032e+06         2.05059e+08
    7.53              283270             359.094        -6.95021e+06         2.04545e+08
    7.55              282214             357.373        -6.93006e+06          2.0403e+08
    7.57              281158             355.655        -6.90986e+06         2.03512e+08
    7.59              280101             353.937        -6.88962e+06         2.02993e+08
    7.61              279044             352.222        -6.86934e+06         2.02472e+08
    7.63              277988             350.509        -6.84901e+06         2.01949e+08
    7.65              276931             348.797        -6.82864e+06         2.01425e+08
    7.67              275875             347.088        -6.80822e+06         2.00899e+08
    7.69              274818             345.381        -6.78777e+06         2.00371e+08
    7.71              273761             343.675        -6.76727e+06         1.99841e+08
    7.73              272705             341.972        -6.74673e+06          1.9931e+08
    7.75              271649             340.271        -6.72616e+06         1.98778e+08
    7.77              270593             338.572        -6.70554e+06         1.98243e+08
    7.79              269537             336.876        -6.68488e+06         1.97707e+08
    7.81              268481             335.182        -6.66419e+06          1.9717e+08
    7.83              267426              333.49        -6.64346e+06         1.96631e+08
    7.85              266371             331.801        -6.62269e+06          1.9609e+08
    7.87              265316             330.114        -6.60189e+06         1.95548e+08
    7.89              264261              328.43        -6.58105e+06         1.95005e+08
    7.91              263207             326.749        -6.56017e+06         1.94459e+08
    7.93              262154              325.07        -6.53927e+06         1.93913e+08
    7.95              261100             323.394        -6.51833e+06         1.93365e+08
    7.97              260047              321.72        -6.49735e+06         1.92815e+08
    7.99              258995              320.05        -6.47635e+06         1.92265e+08
    8.01              257943             318.382        -6.45531e+06         1.91712e+08
    8.03              256892             316.718        -6.43424e+06         1.91159e+08
    8.05              255841             315.056        -6.41314e+06         1.90604e+08
    8.07              254791             313.398        -6.39202e+06         1.90047e+08
    8.09              253741             311.742        -6.37086e+06          1.8949e+08
    8.11              252692              310.09        -6.34968e+06         1.88931e+08
    8.13              251644             308.441        -6.32846e+06         1.88371e+08
    8.15              250597             306.795        -6.30723e+06         1.87809e+08
    8.17              249550             305.152        -6.28596e+06         1.87246e+08
    8.19              248504             303.513        -6.26467e+06         1.86682e+08
    8.21              247459             301.877        -6.24336e+06         1.86117e+08
    8.23              246414             300.245        -6.22203e+06         1.85551e+08
    8.25              245371             298.616        -6.20067e+06         1.84983e+08
    8.27              244328             296.991        -6.17928e+06         1.84415e+08
    8.29              243286             295.369        -6.15788e+06         1.83845e+08
    8.31              242245             293.751        -6.13646e+06         1.83274e+08
    8.33              241205             292.136        -6.11501e+06         1.82702e+08
    8.35              240167             290.526        -6.09355e+06         1.82129e+08
    8.37              239129             288.919        -6.07206e+06         1.81555e+08
    8.39              238092             287.316        -6.05056e+06          1.8098e+08
    8.41              237056             285.717        -6.02905e+06         1.80403e+08
    8.43              236022             284.122        -6.00751e+06         1.79826e+08
    8.45              234988             282.531        -5.98596e+06         1.79248e+08
    8.47              233956             280.944         -5.9644e+06         1.78669e+08
    8.49              232925             279.361        -5.94282e+06         1.78089e+08
    8.51              231895             277.782        -5.92123e+06         1.77508e+08
    8.53              230866             276.207        -5.89962e+06         1.76926e+08
    8.55              229839             274.637          -5.878e+06         1.76344e+08
    8.57              228813              273.07        -5.85637e+06          1.7576e+08
    8.59              227788             271.509        -5.83473e+06         1.75176e+08
    8.61              226764             269.951        -5.81309e+06         1.74591e+08
    8.63              225742             268.398        -5.79143e+06         1.74005e+08
    8.65              224722             266.849        -5.76976e+06         1.73419e+08
    8.67              223703             265.305        -5.74809e+06         1.72831e+08
    8.69              222685             263.765        -5.72641e+06         1.72243e+08
    8.71              221669              262.23        -5.70472e+06         1.71655e+08
    8.73              220654               260.7        -5.68303e+06         1.71065e+08
    8.75              219641             259.174        -5.66133e+06         1.70475e+08
    8.77              218629             257.653        -5.63963e+06         1.69885e+08
    8.79              217619             256.137        -5.61793e+06         1.69293e+08
    8.81              216611             254.625        -5.59622e+06         1.68702e+08
    8.83              215604             253.119        -5.57452e+06         1.68109e+08
    8.85              214600             251.617        -5.55281e+06         1.67516e+08
    8.87              213596              250.12         -5.5311e+06         1.66923e+08
    8.89              212595             248.628        -5.50939e+06         1.66329e+08
    8.91              211595             247.141        -5.48769e+06         1.65735e+08
    8.93              210597              245.66        -5.46598e+06          1.6514e+08
    8.95              209601             244.183        -5.44428e+06         1.64545e+08
    8.97              208607             242.711        -5.42259e+06         1.63949e+08
    8.99              207614             241.245         -5.4009e+06         1.63353e+08
    9.01              206624             239.784        -5.37921e+06         1.62757e+08
    9.03              205635             238.328        -5.35753e+06          1.6216e+08
    9.05              204649             236.877        -5.33586e+06         1.61563e+08
    9.07              203664             235.432        -5.31419e+06         1.60966e+08
    9.09              202681             233.992        -5.29253e+06         1.60368e+08
    9.11              201701             232.557        -5.27089e+06         1.59771e+08
    9.13              200722             231.128        -5.24925e+06         1.59173e+08
    9.15              199746             229.704        -5.22762e+06         1.58574e+08
    9.17              198771             228.286          -5.206e+06         1.57976e+08
    9.19              197799             226.873         -5.1844e+06         1.57378e+08
    9.21              196829             225.466        -5.16281e+06         1.56779e+08
    9.23              195861             224.064        -5.14123e+06          1.5618e+08
    9.25              194895             222.669        -5.11967e+06         1.55582e+08
    9.27              193932             221.278        -5.09812e+06         1.54983e+08
    9.29              192971             219.894        -5.07659e+06         1.54384e+08
    9.31              192012             218.515        -5.05507e+06         1.53785e+08
    9.33              191055             217.142        -5.03358e+06         1.53186e+08
    9.35              190101             215.775         -5.0121e+06         1.52587e+08
    9.37              189149             214.414        -4.99064e+06         1.51988e+08
    9.39              188199             213.058        -4.96919e+06          1.5139e+08
    9.41              187252             211.709        -4.94777e+06         1.50791e+08
    9.43              186307             210.365        -4.92637e+06         1.50193e+08
    9.45              185365             209.028          -4.905e+06         1.49594e+08
    9.47              184425             207.696        -4.88364e+06         1.48996e+08
    9.49              183488             206.371        -4.86231e+06         1.48398e+08
    9.51              182553             205.051          -4.841e+06         1.47801e+08
    9.53              181620             203.738        -4.81972e+06         1.47203e+08
    9.55              180691              202.43        -4.79846e+06         1.46606e+08
    9.57              179763             201.129        -4.77723e+06         1.46009e+08
    9.59              178839             199.834        -4.75603e+06         1.45412e+08
    9.61              177917             198.545        -4.73485e+06         1.44816e+08
    9.63              176997             197.263         -4.7137e+06          1.4422e+08
    9.65              176081             195.986        -4.69258e+06         1.43624e+08
    9.67              175167             194.716        -4.67149e+06         1.43029e+08
    9.69              174256             193.453        -4.65043e+06         1.42434e+08
    9.71              173347             192.195        -4.62941e+06          1.4184e+08
    9.73              172441             190.944        -4.60841e+06         1.41246e+08
    9.75              171538             189.699        -4.58745e+06         1.40653e+08
    9.77              170638             188.461        -4.56652e+06          1.4006e+08
    9.79              169741             187.229        -4.54562e+06         1.39468e+08
    9.81              168846             186.004        -4.52476e+06         1.38876e+08
    9.83              167954             184.785        -4.50394e+06         1.38285e+08
    9.85              167065             183.572        -4.48315e+06         1.37694e+08
    9.87              166180             182.366         -4.4624e+06         1.37104e+08
    9.89              165297             181.167        -4.44168e+06         1.36515e+08
    9.91              164416             179.974        -4.42101e+06         1.35926e+08
    9.93              163539             178.788        -4.40037e+06         1.35338e+08
    9.95              162665             177.608        -4.37977e+06         1.34751e+08
    9.97              161794             176.435        -4.35921e+06         1.34164e+08
    9.99              160926             175.269        -4.33869e+06         1.33578e+08
   10.01              160061             174.109        -4.31822e+06         1.32993e+08
   10.03              159198             172.956        -4.29778e+06         1.32409e+08
   10.05              158339             171.809        -4.27739e+06         1.31826e+08
   10.07              157483             170.669        -4.25705e+06         1.31243e+08
   10.09              156631             169.536        -4.23674e+06         1.30661e+08
   10.11              155781              168.41        -4.21648e+06          1.3008e+08
   10.13              154934             167.291        -4.19627e+06         1.29501e+08
   10.15              154091             166.178         -4.1761e+06         1.28921e+08
   10.17              153250             165.072        -4.15598e+06         1.28343e+08
   10.19              152413             163.972        -4.13591e+06         1.27766e+08
   10.21              151579              162.88        -4.11588e+06          1.2719e+08
   10.23              150748             161.794         -4.0959e+06         1.26615e+08
   10.25              149921             160.716        -4.07597e+06         1.26041e+08
   10.27              149097             159.644         -4.0561e+06         1.25467e+08
   10.29              148276             158.579        -4.03627e+06         1.24895e+08
   10.31              147458              157.52        -4.01649e+06         1.24324e+08
   10.33              146643             156.469        -3.99676e+06         1.23754e+08
   10.35              145832             155.425        -3.97709e+06         1.23186e+08
   10.37              145024             154.387        -3.95747e+06         1.22618e+08
   10.39              144220             153.357         -3.9379e+06         1.22051e+08
   10.41              143419             152.333        -3.91838e+06         1.21486e+08
   10.43              142621             151.316        -3.89892e+06         1.20922e+08
   10.45              141827             150.306        -3.87952e+06         1.20359e+08
   10.47              141036             149.303        -3.86017e+06         1.19797e+08
   10.49              140248             148.307        -3.84087e+06         1.19237e+08
   10.51              139464             147.318        -3.82163e+06         1.18678e+08
   10.53              138683             146.336        -3.80245e+06          1.1812e+08
   10.55              137905             145.361        -3.78333e+06         1.17563e+08
   10.57              137131             144.393        -3.76426e+06         1.17008e+08
   10.59              136361             143.432        -3.74526e+06         1.16454e+08
   10.61              135594             142.478        -3.72631e+06         1.15901e+08
   10.63              134830              141.53        -3.70742e+06          1.1535e+08
   10.65              134070              140.59        -3.68859e+06           1.148e+08
   10.67              133314             139.657        -3.66983e+06         1.14252e+08
   10.69              132561             138.731        -3.65112e+06         1.13705e+08
   10.71              131811             137.811        -3.63248e+06          1.1316e+08
   10.73              131065             136.899         -3.6139e+06         1.12616e+08
   10.75              130323             135.994        -3.59538e+06         1.12073e+08
   10.77              129584             135.096        -3.57692e+06         1.11532e+08
   10.79              128849             134.204        -3.55853e+06         1.10992e+08
   10.81              128117              133.32         -3.5402e+06         1.10454e+08
   10.83              127389             132.443        -3.52193e+06         1.09918e+08
   10.85              126664             131.572        -3.50373e+06         1.09383e+08
   10.87              125943             130.709         -3.4856e+06          1.0885e+08
   10.89              125226             129.853        -3.46753e+06         1.08318e+08
   10.91              124512             129.003        -3.44953e+06         1.07788e+08
   10.93              123802             128.161        -3.43159e+06         1.07259e+08
   10.95              123096             127.326        -3.41372e+06         1.06732e+08
   10.97              122393             126.497        -3.39592e+06         1.06207e+08
   10.99              121693             125.676        -3.37819e+06         1.05683e+08
   11.01              120998             124.861        -3.36052e+06         1.05162e+08
   11.03              120306             124.054        -3.34293e+06         1.04641e+08
   11.05              119618             123.253         -3.3254e+06         1.04123e+08
   11.07              118933             122.459        -3.30794e+06         1.03606e+08
   11.09              118252             121.672        -3.29055e+06         1.03091e+08
   11.11              117575             120.893        -3.27323e+06         1.02578e+08
   11.13              116901              120.12        -3.25599e+06         1.02066e+08
   11.15              116231             119.354        -3.23881e+06         1.01557e+08
   11.17              115565             118.594         -3.2217e+06         1.01049e+08
   11.19              114903             117.842        -3.20467e+06         1.00543e+08
   11.21              114244             117.097        -3.18771e+06         1.00038e+08
   11.23              113589             116.358        -3.17082e+06         9.95359e+07
   11.25              112937             115.626          -3.154e+06         9.90353e+07
   11.27              112290             114.902        -3.13726e+06         9.85366e+07
   11.29              111646             114.184        -3.12059e+06         9.80397e+07
   11.31              111006             113.472        -3.10399e+06         9.75447e+07
   11.33              110369             112.768        -3.08746e+06         9.70515e+07
   11.35              109736              112.07        -3.07101e+06         9.65603e+07
   11.37              109107             111.379        -3.05464e+06          9.6071e+07
   11.39              108482             110.695        -3.03834e+06         9.55837e+07
   11.41              107860             110.018        -3.02211e+06         9.50982e+07
   11.43              107242             109.347        -3.00596e+06         9.46148e+07
   11.45              106628             108.683        -2.98989e+06         9.41332e+07
   11.47              106018             108.026        -2.97389e+06         9.36537e+07
   11.49              105411             107.375        -2.95796e+06         9.31761e+07
   11.51              104808             106.731        -2.94212e+06         9.27005e+07
   11.53              104209             106.094        -2.92635e+06         9.22269e+07
   11.55              103613             105.463        -2.91065e+06         9.17554e+07
   11.57              103021             104.839        -2.89503e+06         9.12858e+07
   11.59              102433             104.222        -2.87949e+06         9.08183e+07
   11.61              101849             103.611        -2.86403e+06         9.03528e+07
   11.63              101269             103.006        -2.84865e+06         8.98893e+07
   11.65              100692             102.409        -2.83334e+06         8.94279e+07
   11.67              100119             101.817        -2.81811e+06         8.89686e+07
   11.69             99549.2             101.232        -2.80296e+06         8.85114e+07
   11.71             98983.6             100.654        -2.78788e+06         8.80562e+07
   11.73             98421.6             100.082        -2.77289e+06         8.76031e+07
   11.75             97863.4             99.5161        -2.75797e+06         8.71521e+07
   11.77             97308.9             98.9569        -2.74313e+06         8.67032e+07
   11.79             96758.1              98.404        -2.72837e+06         8.62564e+07
   11.81               96211             97.8574        -2.71369e+06         8.58117e+07
   11.83             95667.6             97.3172        -2.69909e+06         8.53692e+07
   11.85             95127.9             96.7832        -2.68457e+06         8.49288e+07
   11.87               94592             96.2555        -2.67013e+06         8.44905e+07
   11.89             94059.7             95.7341        -2.65576e+06         8.40544e+07
   11.91             93531.1             95.2188        -2.64148e+06         8.36204e+07
   11.93             93006.2             94.7097        -2.62728e+06         8.31885e+07
   11.95               92485             94.2068        -2.61315e+06         8.27589e+07
   11.97             91967.5               93.71        -2.59911e+06         8.23314e+07
   11.99             91453.6             93.2193        -2.58515e+06          8.1906e+07
   12.01             90943.4             92.7347        -2.57126e+06         8.14829e+07
   12.03             90436.9             92.2561        -2.55746e+06         8.10619e+07
   12.05               89934             91.7835        -2.54374e+06         8.06431e+07
   12.07             89434.8             91.3169        -2.53009e+06         8.02265e+07
   12.09             88939.2             90.8562        -2.51653e+06         7.98121e+07
   12.11             88447.3             90.4015        -2.50305e+06         7.93999e+07
   12.13               87959             89.9526        -2.48964e+06         7.89899e+07
   12.15             87474.3             89.5096        -2.47632e+06         7.85821e+07
   12.17             86993.2             89.0724        -2.46308e+06         7.81765e+07
   12.19             86515.8              88.641        -2.44992e+06         7.77731e+07
   12.21             86041.9             88.2154        -2.43684e+06          7.7372e+07
   12.23             85571.6             87.7955        -2.42384e+06          7.6973e+07
   12.25               85105             87.3813        -2.41092e+06         7.65763e+07
   12.27             84641.9             86.9727        -2.39808e+06         7.61818e+07
   12.29             84182.4             86.5698        -2.38532e+06         7.57896e+07
   12.31             83726.4             86.1724        -2.37264e+06         7.53995e+07
   12.33               83274             85.7806        -2.36005e+06         7.50117e+07
   12.35             82825.1             85.3944        -2.34753e+06         7.46262e+07
   12.37             82379.8             85.0136        -2.33509e+06         7.42428e+07
   12.39               81938             84.6383        -2.32274e+06         7.38617e+07
   12.41             81499.8             84.2684        -2.31046e+06         7.34829e+07
   12.43               81065             83.9038        -2.29826e+06         7.31062e+07
   12.45             80633.7             83.5446        -2.28615e+06         7.27319e+07
   12.47             80205.9             83.1907        -2.27411e+06         7.23597e+07
   12.49             79781.6             82.8421        -2.26216e+06         7.19898e+07
   12.51             79360.8             82.4987        -2.25028e+06         7.16222e+07
   12.53             78943.4             82.1605        -2.23848e+06         7.12567e+07
   12.55             78529.5             81.8274        -2.22677e+06         7.08936e+07
   12.57               78119             81.4995        -2.21513e+06         7.05326e+07
   12.59             77711.9             81.1766        -2.20357e+06         7.01739e+07
   12.61             77308.3             80.8588         -2.1921e+06         6.98175e+07
   12.63               76908             80.5459         -2.1807e+06         6.94632e+07
   12.65             76511.2              80.238        -2.16938e+06         6.91113e+07
   12.67             76117.7             79.9351        -2.15814e+06         6.87615e+07
   12.69             75727.6              79.637        -2.14698e+06          6.8414e+07
   12.71             75340.8             79.3437         -2.1359e+06         6.80687e+07
   12.73             74957.4             79.0553         -2.1249e+06         6.77257e+07
   12.75             74577.4             78.7716        -2.11397e+06         6.73849e+07
   12.77             74200.6             78.4926        -2.10312e+06         6.70463e+07
   12.79             73827.1             78.2183        -2.09236e+06         6.67099e+07
   12.81               73457             77.9486        -2.08167e+06         6.63758e+07
   12.83             73090.1             77.6835        -2.07106e+06         6.60439e+07
   12.85             72726.5             77.4229        -2.06052e+06         6.57142e+07
   12.87             72366.1             77.1669        -2.05007e+06         6.53867e+07
   12.89               72009             76.9153        -2.03969e+06         6.50614e+07
   12.91             71655.1             76.6682        -2.02939e+06         6.47384e+07
   12.93             71304.5             76.4254        -2.01916e+06         6.44175e+07
   12.95               70957              76.187        -2.00902e+06         6.40989e+07
   12.97             70612.7             75.9528        -1.99894e+06         6.37825e+07
   12.99             70271.6             75.7229        -1.98895e+06         6.34682e+07
   13.01             69933.7             75.4972        -1.97903e+06         6.31561e+07
   13.03             69598.8             75.2757        -1.96919e+06         6.28463e+07
   13.05             69267.2             75.0583        -1.95943e+06         6.25386e+07
   13.07             68938.6              74.845        -1.94974e+06         6.22331e+07
   13.09             68613.1             74.6357        -1.94012e+06         6.19297e+07
   13.11             68290.7             74.4304        -1.93058e+06         6.16286e+07
   13.13             67971.4              74.229        -1.92112e+06         6.13296e+07
   13.15             67655.2             74.0316        -1.91173e+06         6.10327e+07
   13.17               67342              73.838        -1.90241e+06          6.0738e+07
   13.19             67031.8             73.6482        -1.89317e+06         6.04455e+07
   13.21             66724.6             73.4622          -1.884e+06         6.01551e+07
   13.23             66420.4             73.2799        -1.87491e+06         5.98669e+07
   13.25             66119.2             73.1013        -1.86589e+06         5.95807e+07
   13.27               65821             72.9263        -1.85694e+06         5.92967e+07
   13.29             65525.7              72.755        -1.84807e+06         5.90149e+07
   13.31             65233.3             72.5871        -1.83927e+06         5.87351e+07
   13.33             64943.8             72.4228        -1.83054e+06         5.84574e+07
   13.35             64657.3              72.262        -1.82189e+06         5.81819e+07
   13.37             64373.6             72.1045         -1.8133e+06         5.79084e+07
   13.39             64092.8             71.9504        -1.80479e+06         5.76371e+07
   13.41             63814.9             71.7997        -1.79635e+06         5.73678e+07
   13.43             63539.8             71.6522        -1.78798e+06         5.71006e+07
   13.45             63267.5              71.508        -1.77968e+06         5.68354e+07
   13.47               62998              71.367        -1.77145e+06         5.65723e+07
   13.49             62731.2             71.2291        -1.76329e+06         5.63113e+07
   13.51             62467.3             71.0943         -1.7552e+06         5.60523e+07
   13.53             62206.1             70.9626        -1.74718e+06         5.57954e+07
   13.55             61947.6             70.8339        -1.73923e+06         5.55404e+07
   13.57             61691.9             70.7082        -1.73135e+06         5.52875e+07
   13.59             61438.8             70.5854        -1.72353e+06         5.50367e+07
   13.61             61188.5             70.4655        -1.71579e+06         5.47878e+07
   13.63             60940.8             70.3485        -1.70811e+06         5.45409e+07
   13.65             60695.7             70.2342         -1.7005e+06          5.4296e+07
   13.67             60453.3             70.1227        -1.69296e+06         5.40531e+07
   13.69             60213.5             70.0139        -1.68548e+06         5.38122e+07
   13.71             59976.3             69.9078        -1.67807e+06         5.35733e+07
   13.73             59741.6             69.8043        -1.67073e+06         5.33363e+07
   13.75             59509.6             69.7034        -1.66345e+06         5.31012e+07
   13.77               59280             69.6051        -1.65624e+06         5.28681e+07
   13.79               59053             69.5092         -1.6491e+06         5.26369e+07
   13.81             58828.5             69.4158        -1.64201e+06         5.24076e+07
   13.83             58606.5             69.3248          -1.635e+06         5.21803e+07
   13.85               58387             69.2362        -1.62804e+06         5.19548e+07
   13.87             58169.9             69.1499        -1.62116e+06         5.17313e+07
   13.89             57955.2             69.0659        -1.61433e+06         5.15096e+07
   13.91               57743             68.9842        -1.60757e+06         5.12898e+07
   13.93             57533.2             68.9047        -1.60087e+06         5.10719e+07
   13.95             57325.7             68.8273        -1.59423e+06         5.08559e+07
   13.97             57120.6             68.7521        -1.58766e+06         5.06416e+07
   13.99             56917.9             68.6789        -1.58114e+06         5.04292e+07
   14.01             56717.5             68.6078        -1.57469e+06         5.02187e+07
   14.03             56519.4             68.5387         -1.5683e+06           5.001e+07
   14.05             56323.6             68.4716        -1.56197e+06          4.9803e+07
   14.07             56130.1             68.4064         -1.5557e+06         4.95979e+07
   14.09             55938.8              68.343        -1.54949e+06         4.93945e+07
   14.11             55749.7             68.2816        -1.54333e+06          4.9193e+07
   14.13             55562.9             68.2219        -1.53724e+06         4.89932e+07
   14.15             55378.3              68.164        -1.53121e+06         4.87951e+07
   14.17             55195.9             68.1079        -1.52523e+06         4.85988e+07
   14.19             55015.6             68.0534        -1.51931e+06         4.84043e+07
   14.21             54837.5             68.0006        -1.51345e+06         4.82114e+07
   14.23             54661.5             67.9494        -1.50765e+06         4.80203e+07
   14.25             54487.6             67.8998         -1.5019e+06         4.78309e+07
   14.27             54315.8             67.8518        -1.49621e+06         4.76432e+07
   14.29             54146.1             67.8052        -1.49058e+06         4.74571e+07
   14.31             53978.4             67.7601          -1.485e+06         4.72728e+07
   14.33             53812.8             67.7165        -1.47947e+06         4.70901e+07
   14.35             53649.2             67.6743          -1.474e+06          4.6909e+07
   14.37             53487.6             67.6334        -1.46859e+06         4.67296e+07
   14.39             53327.9             67.5939        -1.46323e+06         4.65518e+07
   14.41             53170.3             67.5557        -1.45792e+06         4.63756e+07
   14.43             53014.6             67.5187        -1.45267e+06         4.62011e+07
   14.45             52860.8             67.4829        -1.44746e+06         4.60281e+07
   14.47             52708.9             67.4484        -1.44231e+06         4.58567e+07
   14.49             52558.9              67.415        -1.43722e+06         4.56869e+07
   14.51             52410.8             67.3828        -1.43217e+06         4.55187e+07
   14.53             52264.5             67.3516        -1.42718e+06          4.5352e+07
   14.55             52120.1             67.3215        -1.42223e+06         4.51868e+07
   14.57             51977.5             67.2924        -1.41734e+06         4.50232e+07
   14.59             51836.7             67.2644         -1.4125e+06         4.48611e+07
   14.61             51697.7             67.2373         -1.4077e+06         4.47005e+07
   14.63             51560.5             67.2111        -1.40296e+06         4.45414e+07
   14.65               51425             67.1859        -1.39826e+06         4.43838e+07
   14.67             51291.2             67.1615        -1.39361e+06         4.42277e+07
   14.69             51159.1              67.138        -1.38901e+06          4.4073e+07
   14.71             51028.8             67.1153        -1.38446e+06         4.39198e+07
   14.73             50900.1             67.0934        -1.37996e+06          4.3768e+07
   14.75             50773.1             67.0722         -1.3755e+06         4.36176e+07
   14.77             50647.7             67.0518        -1.37108e+06         4.34687e+07
   14.79             50523.9              67.032        -1.36672e+06         4.33211e+07
   14.81             50401.7              67.013         -1.3624e+06          4.3175e+07
   14.83             50281.2             66.9946        -1.35812e+06         4.30302e+07
   14.85             50162.2             66.9768        -1.35389e+06         4.28868e+07
   14.87             50044.7             66.9596        -1.34971e+06         4.27448e+07
   14.89             49928.8             66.9429        -1.34556e+06         4.26041e+07
   14.91             49814.4             66.9268        -1.34146e+06         4.24647e+07
   14.93             49701.5             66.9112        -1.33741e+06         4.23267e+07
   14.95             49590.1             66.8961        -1.33339e+06           4.219e+07
   14.97             49480.2             66.8815        -1.32942e+06         4.20546e+07
   14.99             49371.7             66.8673         -1.3255e+06         4.19205e+07
   15.01             49264.6             66.8535        -1.32161e+06         4.17876e+07
   15.03               49159             66.8401        -1.31776e+06         4.16561e+07
   15.05             49054.7              66.827        -1.31396e+06         4.15257e+07
   15.07             48951.9             66.8143        -1.31019e+06         4.13967e+07
   15.09             48850.4              66.802        -1.30647e+06         4.12688e+07
   15.11             48750.2             66.7899        -1.30278e+06         4.11422e+07
   15.13             48651.4              66.778        -1.29914e+06         4.10168e+07
   15.15             48553.9             66.7664        -1.29553e+06         4.08926e+07
   15.17             48457.7             66.7551        -1.29196e+06         4.07696e+07
   15.19             48362.7             66.7439        -1.28843e+06         4.06478e+07
   15.21             48269.1              66.733        -1.28494e+06         4.05271e+07
   15.23             48176.7             66.7221        -1.28148e+06         4.04076e+07
   15.25             48085.5             66.7115        -1.27806e+06         4.02892e+07
   15.27             47995.5             66.7009        -1.27468e+06          4.0172e+07
   15.29             47906.8             66.6904        -1.27133e+06         4.00559e+07
   15.31             47819.2             66.6801        -1.26802e+06         3.99409e+07
   15.33             47732.8             66.6697        -1.26475e+06          3.9827e+07
   15.35             47647.5             66.6594        -1.26151e+06         3.97141e+07
   15.37             47563.4             66.6492         -1.2583e+06         3.96024e+07
   15.39             47480.4             66.6389        -1.25513e+06         3.94917e+07
   15.41             47398.5             66.6286        -1.25199e+06         3.93821e+07
   15.43             47317.7             66.6183        -1.24889e+06         3.92736e+07
   15.45               47238             66.6079        -1.24582e+06          3.9166e+07
   15.47             47159.4             66.5974        -1.24278e+06         3.90595e+07
   15.49             47081.7             66.5869        -1.23977e+06          3.8954e+07
   15.51             47005.1             66.5762         -1.2368e+06         3.88495e+07
   15.53             46929.6             66.5655        -1.23386e+06          3.8746e+07
   15.55               46855             66.5545        -1.23094e+06         3.86435e+07
   15.57             46781.4             66.5435        -1.22806e+06         3.85419e+07
   15.59             46708.8             66.5322        -1.22521e+06         3.84413e+07
   15.61             46637.1             66.5207         -1.2224e+06         3.83416e+07
   15.63             46566.4             66.5091        -1.21961e+06         3.82429e+07
   15.65             46496.6             66.4972        -1.21685e+06         3.81451e+07
   15.67             46427.7             66.4851        -1.21412e+06         3.80483e+07
   15.69             46359.7             66.4727        -1.21141e+06         3.79523e+07
   15.71             46292.6             66.4601        -1.20874e+06         3.78572e+07
   15.73             46226.3             66.4472        -1.20609e+06          3.7763e+07
   15.75             46160.9              66.434        -1.20348e+06         3.76697e+07
   15.77             46096.4             66.4204        -1.20089e+06         3.75773e+07
   15.79             46032.6             66.4066        -1.19832e+06         3.74857e+07
   15.81             45969.7             66.3924        -1.19579e+06          3.7395e+07
   15.83             45907.6             66.3779        -1.19328e+06         3.73051e+07
   15.85             45846.3              66.363        -1.19079e+06          3.7216e+07
   15.87             45785.7             66.3477        -1.18834e+06         3.71277e+07
   15.89             45725.9              66.332         -1.1859e+06         3.70403e+07
   15.91             45666.8              66.316         -1.1835e+06         3.69536e+07
   15.93             45608.5             66.2995        -1.18111e+06         3.68678e+07
   15.95             45550.9             66.2826        -1.17876e+06         3.67827e+07
   15.97               45494             66.2652        -1.17642e+06         3.66983e+07
   15.99             45437.8             66.2474        -1.17411e+06         3.66148e+07
   16.01             45382.3             66.2291        -1.17182e+06         3.65319e+07
   16.03             45327.4             66.2104        -1.16956e+06         3.64499e+07
   16.05             45273.2             66.1912        -1.16732e+06         3.63685e+07
   16.07             45219.6             66.1714         -1.1651e+06         3.62879e+07
   16.09             45166.7             66.1512        -1.16291e+06          3.6208e+07
   16.11             45114.4             66.1305        -1.16073e+06         3.61287e+07
   16.13             45062.7             66.1092        -1.15858e+06         3.60502e+07
   16.15             45011.6             66.0874        -1.15645e+06         3.59724e+07
   16.17               44961              66.065        -1.15434e+06         3.58952e+07
   16.19             44911.1             66.0421        -1.15225e+06         3.58187e+07
   16.21             44861.7             66.0187        -1.15018e+06         3.57429e+07
   16.23             44812.8             65.9946        -1.14813e+06         3.56677e+07
   16.25             44764.5               65.97         -1.1461e+06         3.55931e+07
   16.27             44716.7             65.9447        -1.14409e+06         3.55192e+07
   16.29             44669.4             65.9189        -1.14211e+06         3.54459e+07
   16.31             44622.7             65.8924        -1.14013e+06         3.53732e+07
   16.33             44576.4             65.8654        -1.13818e+06         3.53012e+07
   16.35             44530.6             65.8377        -1.13625e+06         3.52297e+07
   16.37             44485.2             65.8093        -1.13433e+06         3.51588e+07
   16.39             44440.3             65.7804        -1.13244e+06         3.50885e+07
   16.41             44395.9             65.7507        -1.13056e+06         3.50188e+07
   16.43             44351.9             65.7204         -1.1287e+06         3.49496e+07
   16.45             44308.3             65.6895        -1.12685e+06          3.4881e+07
   16.47             44265.2             65.6578        -1.12502e+06          3.4813e+07
   16.49             44222.5             65.6255        -1.12321e+06         3.47455e+07
   16.51             44180.1             65.5925        -1.12142e+06         3.46785e+07
   16.53             44138.2             65.5588        -1.11964e+06          3.4612e+07
   16.55             44096.6             65.5244        -1.11788e+06         3.45461e+07
   16.57             44055.4             65.4893        -1.11613e+06         3.44807e+07
   16.59             44014.5             65.4534         -1.1144e+06         3.44158e+07
   16.61               43974             65.4169        -1.11268e+06         3.43514e+07
   16.63             43933.8             65.3796        -1.11098e+06         3.42875e+07
   16.65               43894             65.3416        -1.10929e+06          3.4224e+07
   16.67             43854.5             65.3028        -1.10762e+06         3.41611e+07
   16.69             43815.3             65.2633        -1.10596e+06         3.40986e+07
   16.71             43776.4              65.223        -1.10432e+06         3.40365e+07
   16.73             43737.8              65.182        -1.10268e+06          3.3975e+07
   16.75             43699.4             65.1403        -1.10107e+06         3.39138e+07
   16.77             43661.4             65.0977        -1.09946e+06         3.38532e+07
   16.79             43623.6             65.0544        -1.09787e+06         3.37929e+07
   16.81             43586.1             65.0103         -1.0963e+06         3.37331e+07
   16.83             43548.8             64.9654        -1.09473e+06         3.36737e+07
   16.85             43511.8             64.9198        -1.09318e+06         3.36147e+07
   16.87               43475             64.8733        -1.09164e+06         3.35561e+07
   16.89             43438.5              64.826        -1.09011e+06          3.3498e+07
   16.91             43402.1              64.778        -1.08859e+06         3.34402e+07
   16.93               43366             64.7291        -1.08709e+06         3.33828e+07
   16.95             43330.1             64.6795         -1.0856e+06         3.33258e+07
   16.97             43294.3              64.629        -1.08411e+06         3.32692e+07
   16.99             43258.8             64.5777        -1.08264e+06          3.3213e+07
   17.01             43223.5             64.5256        -1.08118e+06         3.31571e+07
   17.03             43188.3             64.4727        -1.07973e+06         3.31016e+07
   17.05             43153.3             64.4189        -1.07829e+06         3.30465e+07
   17.07             43118.4             64.3644        -1.07687e+06         3.29917e+07
   17.09             43083.7              64.309        -1.07545e+06         3.29372e+07
   17.11             43049.2             64.2527        -1.07404e+06         3.28831e+07
   17.13             43014.8             64.1956        -1.07264e+06         3.28293e+07
   17.15             42980.5             64.1377        -1.07125e+06         3.27759e+07
   17.17             42946.4              64.079        -1.06987e+06         3.27228e+07
   17.19             42912.4             64.0194         -1.0685e+06           3.267e+07
   17.21             42878.5             63.9589        -1.06714e+06         3.26175e+07
   17.23             42844.7             63.8976        -1.06579e+06         3.25653e+07
   17.25               42811             63.8355        -1.06444e+06         3.25134e+07
   17.27             42777.4             63.7725        -1.06311e+06         3.24619e+07
   17.29             42743.9             63.7086        -1.06178e+06         3.24106e+07
   17.31             42710.5             63.6439        -1.06047e+06         3.23596e+07
   17.33             42677.2             63.5784        -1.05916e+06         3.23089e+07
   17.35             42643.9              63.512        -1.05785e+06         3.22585e+07
   17.37             42610.7             63.4447        -1.05656e+06         3.22084e+07
   17.39             42577.6             63.3766        -1.05528e+06         3.21585e+07
   17.41             42544.6             63.3076          -1.054e+06          3.2109e+07
   17.43             42511.6             63.2377        -1.05273e+06         3.20596e+07
   17.45             42478.6              63.167        -1.05146e+06         3.20106e+07
   17.47             42445.7             63.0954        -1.05021e+06         3.19618e+07
   17.49             42412.8              63.023        -1.04896e+06         3.19132e+07
   17.51               42380             62.9497        -1.04772e+06         3.18649e+07
   17.53             42347.2             62.8755        -1.04648e+06         3.18169e+07
   17.55             42314.4             62.8005        -1.04525e+06         3.17691e+07
   17.57             42281.6             62.7246        -1.04403e+06         3.17215e+07
   17.59             42248.9             62.6479        -1.04281e+06         3.16742e+07
   17.61             42216.2             62.5702         -1.0416e+06         3.16271e+07
   17.63             42183.5             62.4918         -1.0404e+06         3.15802e+07
   17.65             42150.8             62.4124        -1.03921e+06         3.15336e+07
   17.67               42118             62.3322        -1.03801e+06         3.14871e+07
   17.69             42085.3             62.2512        -1.03683e+06         3.14409e+07
   17.71             42052.6             62.1692        -1.03565e+06          3.1395e+07
   17.73             42019.9             62.0865        -1.03448e+06         3.13492e+07
   17.75             41987.1             62.0028        -1.03331e+06         3.13036e+07
   17.77             41954.4             61.9183        -1.03215e+06         3.12583e+07
   17.79             41921.6              61.833        -1.03099e+06         3.12131e+07
   17.81             41888.8             61.7468        -1.02984e+06         3.11682e+07
   17.83               41856             61.6597        -1.02869e+06         3.11234e+07
   17.85             41823.1             61.5718        -1.02755e+06         3.10789e+07
   17.87             41790.2             61.4831        -1.02642e+06         3.10345e+07
   17.89             41757.3             61.3934        -1.02529e+06         3.09903e+07
   17.91             41724.3              61.303        -1.02416e+06         3.09463e+07
   17.93             41691.3             61.2117        -1.02304e+06         3.09025e+07
   17.95             41658.2             61.1196        -1.02192e+06         3.08589e+07
   17.97             41625.1             61.0266        -1.02081e+06         3.08155e+07
   17.99               41592             60.9328         -1.0197e+06         3.07723e+07
   18.01             41558.8             60.8382         -1.0186e+06         3.07292e+07
   18.03             41525.5             60.7427         -1.0175e+06         3.06863e+07
   18.05             41492.2             60.6464        -1.01641e+06         3.06436e+07
   18.07             41458.8             60.5493        -1.01532e+06          3.0601e+07
   18.09             41425.4             60.4513        -1.01423e+06         3.05586e+07
   18.11             41391.9             60.3525        -1.01315e+06         3.05164e+07
   18.13             41358.3              60.253        -1.01208e+06         3.04744e+07
   18.15             41324.7             60.1526          -1.011e+06         3.04325e+07
   18.17               41291             60.0514        -1.00993e+06         3.03908e+07
   18.19             41257.2             59.9493        -1.00887e+06         3.03492e+07
   18.21             41223.3             59.8465        -1.00781e+06         3.03078e+07
   18.23             41189.4             59.7429        -1.00675e+06         3.02666e+07
   18.25             41155.4             59.6385         -1.0057e+06         3.02255e+07
   18.27             41121.4             59.5333        -1.00465e+06         3.01846e+07
   18.29             41087.2             59.4273         -1.0036e+06         3.01438e+07
   18.31               41053             59.3205        -1.00256e+06         3.01032e+07
   18.33             41018.6              59.213        -1.00152e+06         3.00628e+07
   18.35             40984.2             59.1046        -1.00049e+06         3.00224e+07
   18.37             40949.8             58.9955             -999454         2.99823e+07
   18.39             40915.2             58.8856             -998425         2.99423e+07
   18.41             40880.5              58.775             -997400         2.99024e+07
   18.43             40845.8             58.6636             -996379         2.98627e+07
   18.45               40811             58.5514             -995360         2.98231e+07
   18.47             40776.1             58.4385             -994346         2.97837e+07
   18.49             40741.1             58.3249             -993334         2.97444e+07
   18.51               40706             58.2105             -992326         2.97052e+07
   18.53             40670.8             58.0954             -991320         2.96662e+07
   18.55             40635.5             57.9795             -990318         2.96274e+07
   18.57             40600.1              57.863             -989320         2.95887e+07
   18.59             40564.7             57.7457             -988324         2.95501e+07
   18.61             40529.1             57.6277             -987332         2.95117e+07
   18.63             40493.4              57.509             -986342         2.94734e+07
   18.65             40457.7             57.3895             -985356         2.94352e+07
   18.67             40421.9             57.2694             -984373         2.93972e+07
   18.69             40385.9             57.1486             -983392         2.93593e+07
   18.71             40349.9             57.0271             -982415         2.93216e+07
   18.73             40313.8             56.9049             -981441          2.9284e+07
   18.75             40277.6             56.7821             -980470         2.92465e+07
   18.77             40241.3             56.6585             -979501         2.92092e+07
   18.79             40204.8             56.5344             -978536          2.9172e+07
   18.81             40168.3             56.4095             -977574         2.91349e+07
   18.83             40131.8              56.284             -976614          2.9098e+07
   18.85             40095.1             56.1579             -975658         2.90612e+07
   18.87             40058.3             56.0311             -974704         2.90246e+07
   18.89             40021.4             55.9037             -973753         2.89881e+07
   18.91             39984.4             55.7756             -972805         2.89517e+07
   18.93             39947.4              55.647             -971860         2.89155e+07
   18.95             39910.2             55.5177             -970918         2.88794e+07
   18.97               39873             55.3878             -969979         2.88435e+07
   18.99             39835.6             55.2573             -969043         2.88076e+07
   19.01             39798.2             55.1262             -968110          2.8772e+07
   19.03             39760.7             54.9946             -967179         2.87364e+07
   19.05             39723.1             54.8623             -966251          2.8701e+07
   19.07             39685.4             54.7295             -965327         2.86658e+07
   19.09             39647.6             54.5961             -964405         2.86306e+07
   19.11             39609.7             54.4622             -963486         2.85956e+07
   19.13             39571.7             54.3277             -962569         2.85608e+07
   19.15             39533.7             54.1926             -961656         2.85261e+07
   19.17             39495.5              54.057             -960746         2.84915e+07
   19.19             39457.3             53.9209             -959838         2.84571e+07
   19.21               39419             53.7843             -958933         2.84228e+07
   19.23             39380.6             53.6471             -958032         2.83887e+07
   19.25             39342.1             53.5095             -957133         2.83547e+07
   19.27             39303.6             53.3713             -956237         2.83208e+07
   19.29             39264.9             53.2326             -955344         2.82871e+07
   19.31             39226.2             53.0934             -954454         2.82535e+07
   19.33             39187.4             52.9538             -953567         2.82201e+07
   19.35             39148.5             52.8137             -952682         2.81868e+07
   19.37             39109.6             52.6731             -951801         2.81536e+07
   19.39             39070.5             52.5321             -950923         2.81206e+07
   19.41             39031.4             52.3906             -950047         2.80878e+07
   19.43             38992.3             52.2486             -949175         2.80551e+07
   19.45               38953             52.1063             -948306         2.80225e+07
   19.47             38913.7             51.9635             -947439         2.79901e+07
   19.49             38874.3             51.8202             -946576         2.79579e+07
   19.51             38834.8             51.6766             -945715         2.79258e+07
   19.53             38795.3             51.5326             -944858         2.78938e+07
   19.55             38755.7             51.3881             -944004          2.7862e+07
   19.57               38716             51.2433             -943153         2.78303e+07
   19.59             38676.3             51.0981             -942304         2.77988e+07
   19.61             38636.5             50.9525             -941459         2.77675e+07
   19.63             38596.7             50.8065             -940617         2.77363e+07
   19.65             38556.8             50.6602             -939778         2.77052e+07
   19.67             38516.8             50.5135             -938943         2.76743e+07
   19.69             38476.8             50.3665             -938110         2.76436e+07
   19.71             38436.7             50.2192             -937281          2.7613e+07
   19.73             38396.6             50.0715             -936454         2.75826e+07
   19.75             38356.4             49.9235             -935631         2.75523e+07
   19.77             38316.1             49.7752             -934811         2.75222e+07
   19.79             38275.8             49.6266             -933995         2.74923e+07
   19.81             38235.5             49.4777             -933181         2.74625e+07
   19.83             38195.1             49.3285             -932371         2.74329e+07
   19.85             38154.7             49.1791             -931564         2.74034e+07
   19.87             38114.2             49.0293             -930760         2.73741e+07
   19.89             38073.7             48.8793             -929960          2.7345e+07
   19.91             38033.1             48.7291             -929163          2.7316e+07
   19.93             37992.5             48.5786             -928369         2.72872e+07
   19.95             37951.8             48.4278             -927578         2.72586e+07
   19.97             37911.1             48.2768             -926791         2.72301e+07
   19.99             37870.4             48.1256             -926007         2.72018e+07
